"acc","accuracy","average_response_time","avg_rt","background","canvas_backend","clock_backend","color_backend","compensation","concept","coordinates","correct","correct_wait_4_first_volume","count_blink_trial","count_blink_trial_seq","count_experiment_seq","count_experiment_stimuli","count_images_presentation","count_img_presentation","count_last_logging","count_logging","count_new_img","count_post_hrf_fixation","count_shuffle_images","count_start_experiment_interval","count_start_fixation","count_time_run_end_time","count_time_run_start_time","count_time_start_wait_4_hrf","count_time_trial_offset","count_time_trial_onset","count_type_run","count_wait_1","count_wait_4_first_volume","count_wait_4_fmri","count_wait_4_hrf","datetime","description","disable_garbage_collection","empty_column","experiment_file","experiment_path","font_bold","font_family","font_italic","font_size","font_underline","foreground","form_clicks","fullscreen","gaussian_idxs","height","keyboard_backend","live_row","live_row_blink_trial","live_row_experiment_stimuli","living_idxs","logfile","mouse_backend","new_img","non_living_idxs","opensesame_codename","opensesame_version","patterns_idxs","repeat_cycle","response","response_time","response_time_wait_4_first_volume","response_wait_4_first_volume","round_decimals","run_end_time","run_start_time","sampler_backend","sound_buf_size","sound_channels","sound_freq","sound_sample_size","start","start_wait_4_hrf","subject_nr","subject_parity","time_blink_trial","time_blink_trial_seq","time_experiment_seq","time_experiment_stimuli","time_images_presentation","time_img_presentation","time_last_logging","time_logging","time_new_img","time_post_hrf_fixation","time_shuffle_images","time_start_experiment_interval","time_start_fixation","time_time_run_end_time","time_time_run_start_time","time_time_start_wait_4_hrf","time_time_trial_offset","time_time_trial_onset","time_type_run","time_wait_1","time_wait_4_first_volume","time_wait_4_fmri","time_wait_4_hrf","title","total_correct","total_response_time","total_responses","trial_offset","trial_onset","type_run","uniform_coordinates","width"
"undefined","undefined","11662","11662","black","legacy","legacy","legacy","0","living","uniform","undefined","undefined","0","11","0","0","0","11","0","0","11","0","0","0","0","0","0","0","0","0","0","11","0","0","0","Mon May 30 13:23:13 2022","The main experiment item","yes","",".opensesamerun-tmp.osexp","C:\Users\Experimental user\Desktop\pilot_patxi_marta\perception","no","mono","no","18","no","white","no","yes","[53, 34, 47, 56, 37, 39, 22, 42, 24, 50, 7, 5, 28, 45, 1, 43, 11, 32, 20, 16, 8, 18, 25, 59, 19, 15, 51, 29, 41, 35, 40, 21, 2, 12, 14, 0, 26, 13, 57, 49, 55, 36, 38, 31, 46, 33, 52, 54, 17, 10, 44, 23, 9, 27, 3, 4, 6, 48, 58, 30]","768","legacy","11","11","0","[]","C:/Users/Experimental user/Desktop/pilot_patxi_marta/perception/run_3.csv","legacy","dog_11.jpg","['scissors_2', 'scissors_7', 'scissors_8', 'scissors_9', 'scissors_11', 'scissors_1', 'scissors_5', 'scissors_12', 'scissors_6', 'scissors_4', 'scissors_10', 'scissors_3']","Lentiform Loewenfeld","3.3.9","[23, 33, 55, 17, 27, 37, 36, 32, 24, 50, 13, 7, 12, 5, 43, 14, 53, 26, 8, 9, 34, 41, 11, 16, 21, 30, 6, 18, 45, 58, 10, 15, 46, 39, 47, 28, 49, 56, 20, 2, 59, 44, 31, 3, 22, 51, 38, 42, 54, 29, 35, 57, 19, 25, 0, 52, 48, 1, 4, 40]","0","s","11662","11662","s","2","NA","13002","legacy","1024","2","48000","-16","images_presentation","23959","0","even","24519","35945","24519","24504","1336","35946","NA","46963","35945","45463","24519","13003","23004","NA","13002","36961","46963","24519","1336","36697","1339","1338","36962","images_presentation","0","11662","1","33961","11517","images_presentation","yes","1024"
"undefined","undefined","11662","11662","black","legacy","legacy","legacy","0","non_living","uniform","undefined","undefined","1","23","1","0","0","23","0","1","23","1","1","0","0","0","0","1","1","1","0","23","0","0","1","Mon May 30 13:23:13 2022","The main experiment item","yes","",".opensesamerun-tmp.osexp","C:\Users\Experimental user\Desktop\pilot_patxi_marta\perception","no","mono","no","18","no","white","no","yes","[9, 52, 35, 13, 22, 2, 54, 30, 50, 5, 44, 31, 18, 53, 47, 48, 1, 16, 46, 6, 51, 29, 59, 33, 21, 32, 12, 28, 7, 56, 17, 0, 37, 38, 55, 15, 8, 41, 25, 24, 11, 57, 39, 49, 4, 14, 42, 26, 19, 45, 27, 23, 58, 34, 40, 20, 10, 36, 43, 3]","768","legacy","11","11","1","['dog_5', 'dog_1', 'dog_9', 'dog_11', 'dog_8', 'dog_2', 'dog_4', 'dog_6', 'dog_7', 'dog_12', 'dog_3', 'dog_10']","C:/Users/Experimental user/Desktop/pilot_patxi_marta/perception/run_3.csv","legacy","scissors_2.jpg","[]","Lentiform Loewenfeld","3.3.9","[36, 12, 59, 18, 19, 26, 49, 56, 54, 33, 45, 10, 5, 46, 15, 40, 43, 53, 27, 22, 0, 17, 2, 30, 51, 50, 7, 34, 57, 42, 52, 37, 32, 1, 11, 29, 16, 24, 44, 20, 47, 58, 28, 23, 9, 41, 25, 6, 8, 35, 3, 55, 14, 4, 39, 38, 31, 21, 48, 13]","0","s","11662","11662","s","2","NA","13002","legacy","1024","2","48000","-16","images_presentation","46451","0","even","47006","58436","47005","24504","1336","58438","NA","69458","58436","67958","47006","13003","23004","NA","13002","59453","69458","47006","1336","59189","1339","1338","59454","images_presentation","0","11662","1","56456","34004","images_presentation","yes","1024"
"undefined","undefined","11662","11662","black","legacy","legacy","legacy","0","non_living","uniform","undefined","undefined","2","35","2","0","0","35","0","2","35","2","2","0","0","0","0","2","2","2","0","35","0","0","2","Mon May 30 13:23:13 2022","The main experiment item","yes","",".opensesamerun-tmp.osexp","C:\Users\Experimental user\Desktop\pilot_patxi_marta\perception","no","mono","no","18","no","white","no","yes","[6, 33, 59, 41, 10, 55, 57, 24, 43, 2, 16, 37, 58, 31, 28, 12, 18, 9, 35, 22, 1, 45, 30, 46, 40, 32, 54, 48, 25, 7, 3, 20, 17, 5, 4, 21, 11, 19, 8, 51, 44, 29, 15, 53, 27, 49, 0, 39, 34, 50, 14, 26, 52, 56, 36, 38, 23, 13, 42, 47]","768","legacy","11","11","2","['dog_8', 'dog_5', 'dog_2', 'dog_1', 'dog_9', 'dog_10', 'dog_12', 'dog_4', 'dog_7', 'dog_3', 'dog_11', 'dog_6']","C:/Users/Experimental user/Desktop/pilot_patxi_marta/perception/run_3.csv","legacy","scissors_10.jpg","[]","Lentiform Loewenfeld","3.3.9","[19, 9, 39, 24, 4, 58, 43, 55, 7, 54, 8, 46, 45, 23, 59, 25, 27, 48, 53, 11, 22, 18, 16, 40, 14, 44, 31, 21, 26, 15, 17, 37, 50, 5, 51, 41, 38, 2, 10, 0, 3, 13, 34, 12, 32, 35, 42, 49, 56, 28, 1, 6, 52, 20, 29, 30, 33, 36, 47, 57]","0","s","11662","11662","s","2","NA","13002","legacy","1024","2","48000","-16","images_presentation","68937","0","even","69537","80912","69536","24504","1336","80913","NA","91942","80912","90442","69537","13003","23004","NA","13002","81939","91942","69537","1336","81664","1339","1338","81941","images_presentation","0","11662","1","78940","56535","images_presentation","yes","1024"
"undefined","undefined","11662","11662","black","legacy","legacy","legacy","0","living","uniform","undefined","undefined","3","47","3","0","0","47","0","3","47","3","3","0","0","0","0","3","3","3","0","47","0","0","3","Mon May 30 13:23:13 2022","The main experiment item","yes","",".opensesamerun-tmp.osexp","C:\Users\Experimental user\Desktop\pilot_patxi_marta\perception","no","mono","no","18","no","white","no","yes","[36, 8, 45, 31, 15, 12, 42, 57, 58, 51, 44, 23, 43, 19, 0, 24, 38, 37, 18, 17, 53, 32, 21, 41, 20, 11, 16, 40, 14, 47, 26, 35, 4, 54, 25, 9, 33, 30, 29, 3, 46, 7, 49, 59, 6, 39, 28, 13, 2, 22, 10, 48, 27, 50, 34, 52, 56, 5, 55, 1]","768","legacy","11","11","3","[]","C:/Users/Experimental user/Desktop/pilot_patxi_marta/perception/run_3.csv","legacy","dog_9.jpg","['scissors_12', 'scissors_2', 'scissors_10', 'scissors_1', 'scissors_6', 'scissors_8', 'scissors_7', 'scissors_3', 'scissors_11', 'scissors_5', 'scissors_4', 'scissors_9']","Lentiform Loewenfeld","3.3.9","[53, 30, 38, 44, 56, 42, 28, 57, 36, 13, 17, 23, 47, 58, 18, 29, 20, 22, 2, 45, 51, 5, 4, 6, 0, 41, 3, 32, 16, 21, 27, 52, 8, 54, 55, 50, 12, 34, 35, 31, 7, 37, 49, 1, 59, 11, 43, 24, 9, 15, 46, 25, 40, 14, 26, 10, 39, 48, 19, 33]","0","s","11662","11662","s","2","NA","13002","legacy","1024","2","48000","-16","images_presentation","91376","0","even","91984","103362","91983","24504","1336","103363","NA","114383","103362","112883","91984","13003","23004","NA","13002","104378","114383","91984","1336","104114","1339","1338","104379","images_presentation","0","11662","1","101381","78982","images_presentation","yes","1024"
"undefined","undefined","11662","11662","black","legacy","legacy","legacy","0","gaussian","uniform","undefined","undefined","4","59","4","0","0","59","0","4","59","4","4","0","0","0","0","4","4","4","0","59","0","0","4","Mon May 30 13:23:13 2022","The main experiment item","yes","",".opensesamerun-tmp.osexp","C:\Users\Experimental user\Desktop\pilot_patxi_marta\perception","no","mono","no","18","no","white","no","yes","[49, 45, 42, 8, 31, 13, 10, 25, 16, 2, 59, 18, 55, 30, 27, 19, 44, 21, 41, 47, 0, 43, 20, 58, 23, 9, 28, 53, 15, 48, 6, 29, 34, 37, 52, 35, 4, 46, 26, 22, 36, 3, 14, 50, 7, 56, 12, 11]","768","legacy","11","11","4","['dog_2', 'dog_12', 'dog_1', 'dog_3', 'dog_11', 'dog_6', 'dog_9', 'dog_7', 'dog_5', 'dog_8', 'dog_10', 'dog_4']","C:/Users/Experimental user/Desktop/pilot_patxi_marta/perception/run_3.csv","legacy","gaussian_57.jpg","['scissors_2', 'scissors_1', 'scissors_11', 'scissors_3', 'scissors_10', 'scissors_4', 'scissors_6', 'scissors_5', 'scissors_8', 'scissors_12', 'scissors_7', 'scissors_9']","Lentiform Loewenfeld","3.3.9","[5, 0, 19, 12, 49, 44, 51, 34, 50, 35, 58, 21, 3, 56, 27, 26, 57, 32, 10, 36, 31, 37, 54, 18, 40, 20, 38, 55, 41, 24, 33, 22, 46, 29, 2, 25, 53, 6, 15, 28, 42, 43, 59, 52, 13, 7, 48, 1, 16, 45, 30, 23, 8, 14, 17, 39, 11, 4, 9, 47]","0","s","11662","11662","s","2","NA","13002","legacy","1024","2","48000","-16","images_presentation","113915","0","even","114462","125900","114462","24504","1336","125901","NA","136920","125900","135419","114462","13003","23004","NA","13002","126917","136920","114462","1336","126652","1339","1338","126918","images_presentation","0","11662","1","123918","101460","images_presentation","yes","1024"
"undefined","undefined","11662","11662","black","legacy","legacy","legacy","0","gaussian","uniform","undefined","undefined","5","71","5","0","0","71","0","5","71","5","5","0","0","0","0","5","5","5","0","71","0","0","5","Mon May 30 13:23:13 2022","The main experiment item","yes","",".opensesamerun-tmp.osexp","C:\Users\Experimental user\Desktop\pilot_patxi_marta\perception","no","mono","no","18","no","white","no","yes","[24, 59, 28, 18, 52, 37, 40, 36, 27, 6, 32, 1, 8, 43, 17, 58, 21, 4, 3, 22, 15, 11, 16, 45, 13, 2, 39, 9, 35, 0, 19, 5, 12, 55, 56, 41, 10, 57, 54, 53, 38, 23, 48, 14, 30, 42, 7, 33]","768","legacy","11","11","5","['dog_9', 'dog_12', 'dog_4', 'dog_2', 'dog_10', 'dog_8', 'dog_1', 'dog_6', 'dog_3', 'dog_11', 'dog_7', 'dog_5']","C:/Users/Experimental user/Desktop/pilot_patxi_marta/perception/run_3.csv","legacy","gaussian_31.jpg","['scissors_8', 'scissors_6', 'scissors_1', 'scissors_12', 'scissors_3', 'scissors_7', 'scissors_4', 'scissors_2', 'scissors_11', 'scissors_9', 'scissors_5', 'scissors_10']","Lentiform Loewenfeld","3.3.9","[55, 22, 59, 40, 48, 31, 4, 24, 0, 47, 34, 10, 5, 32, 21, 56, 51, 2, 41, 39, 3, 53, 15, 35, 54, 49, 44, 58, 26, 13, 20, 57, 43, 36, 12, 27, 19, 50, 9, 17, 33, 46, 30, 14, 28, 52, 42, 45, 38, 37, 18, 25, 8, 6, 16, 29, 11, 23, 1, 7]","0","s","11662","11662","s","2","NA","13002","legacy","1024","2","48000","-16","images_presentation","136421","0","even","136973","148406","136973","24504","1336","148408","NA","159426","148406","157926","136973","13003","23004","NA","13002","149423","159426","136973","1336","149159","1339","1338","149424","images_presentation","0","11662","1","146424","123971","images_presentation","yes","1024"
"undefined","undefined","11662","11662","black","legacy","legacy","legacy","0","non_living","uniform","undefined","undefined","6","83","6","0","0","83","0","6","83","6","6","0","0","0","0","6","6","6","0","83","0","0","6","Mon May 30 13:23:13 2022","The main experiment item","yes","",".opensesamerun-tmp.osexp","C:\Users\Experimental user\Desktop\pilot_patxi_marta\perception","no","mono","no","18","no","white","no","yes","[48, 39, 5, 21, 25, 9, 55, 54, 20, 0, 38, 22, 58, 30, 52, 4, 24, 40, 42, 59, 49, 19, 47, 44, 34, 13, 31, 45, 33, 12, 11, 35, 57, 23, 26, 14, 51, 18, 28, 29, 10, 43, 50, 53, 32, 27, 37, 8, 16, 56, 3, 6, 1, 17, 15, 7, 41, 36, 46, 2]","768","legacy","11","11","6","['dog_11', 'dog_2', 'dog_7', 'dog_1', 'dog_4', 'dog_3', 'dog_6', 'dog_10', 'dog_9', 'dog_8', 'dog_12', 'dog_5']","C:/Users/Experimental user/Desktop/pilot_patxi_marta/perception/run_3.csv","legacy","scissors_1.jpg","[]","Lentiform Loewenfeld","3.3.9","[26, 24, 42, 50, 15, 20, 44, 16, 41, 48, 2, 23, 49, 54, 36, 55, 22, 10, 32, 39, 40, 0, 5, 12, 47, 34, 28, 35, 33, 52, 31, 43, 38, 7, 46, 11, 53, 37, 1, 45, 51, 27, 59, 4, 29, 13, 21, 58, 8, 57, 19, 14, 30, 9, 56, 18, 6, 25, 17, 3]","0","s","11662","11662","s","2","NA","13002","legacy","1024","2","48000","-16","images_presentation","158900","0","even","159505","170885","159504","24504","1336","170887","NA","181904","170885","180404","159505","13003","23004","NA","13002","171902","181904","159505","1336","171638","1339","1338","171903","images_presentation","0","11662","1","168902","146503","images_presentation","yes","1024"
"undefined","undefined","11662","11662","black","legacy","legacy","legacy","0","gaussian","uniform","undefined","undefined","7","95","7","0","0","95","0","7","95","7","7","0","0","0","0","7","7","7","0","95","0","0","7","Mon May 30 13:23:13 2022","The main experiment item","yes","",".opensesamerun-tmp.osexp","C:\Users\Experimental user\Desktop\pilot_patxi_marta\perception","no","mono","no","18","no","white","no","yes","[59, 50, 48, 0, 52, 58, 47, 8, 2, 34, 25, 44, 42, 33, 3, 19, 20, 22, 49, 36, 54, 10, 26, 53, 11, 31, 40, 24, 41, 46, 45, 57, 51, 7, 23, 1, 30, 28, 14, 35, 9, 38, 39, 27, 17, 43, 13, 18]","768","legacy","11","11","7","['dog_8', 'dog_10', 'dog_11', 'dog_7', 'dog_1', 'dog_5', 'dog_2', 'dog_4', 'dog_9', 'dog_6', 'dog_3', 'dog_12']","C:/Users/Experimental user/Desktop/pilot_patxi_marta/perception/run_3.csv","legacy","gaussian_6.jpg","['scissors_9', 'scissors_7', 'scissors_5', 'scissors_12', 'scissors_3', 'scissors_1', 'scissors_8', 'scissors_6', 'scissors_10', 'scissors_11', 'scissors_4', 'scissors_2']","Lentiform Loewenfeld","3.3.9","[25, 20, 59, 14, 34, 42, 46, 49, 31, 26, 18, 39, 1, 22, 51, 57, 32, 5, 58, 10, 6, 28, 17, 50, 3, 2, 8, 11, 24, 13, 9, 53, 44, 12, 15, 30, 35, 54, 47, 0, 16, 27, 33, 41, 37, 19, 52, 38, 7, 55, 45, 56, 29, 36, 23, 40, 48, 21, 43, 4]","0","s","11662","11662","s","2","NA","13002","legacy","1024","2","48000","-16","images_presentation","181371","0","even","181933","193357","181933","24504","1336","193358","NA","204375","193357","202875","181933","13003","23004","NA","13002","194373","204375","181933","1336","194109","1339","1338","194374","images_presentation","0","11662","1","191373","168931","images_presentation","yes","1024"
"undefined","undefined","11662","11662","black","legacy","legacy","legacy","0","living","uniform","undefined","undefined","8","107","8","0","0","107","0","8","107","8","8","0","0","0","0","8","8","8","0","107","0","0","8","Mon May 30 13:23:13 2022","The main experiment item","yes","",".opensesamerun-tmp.osexp","C:\Users\Experimental user\Desktop\pilot_patxi_marta\perception","no","mono","no","18","no","white","no","yes","[59, 56, 46, 48, 39, 53, 12, 35, 22, 27, 18, 3, 6, 36, 28, 32, 13, 21, 41, 29, 14, 7, 0, 16, 2, 9, 1, 10, 11, 49, 43, 57, 38, 4, 24, 20, 55, 51, 52, 19, 45, 37, 31, 26, 44, 25, 42, 34, 47, 5, 8, 30, 40, 23, 17, 54, 58, 15, 33, 50]","768","legacy","11","11","8","[]","C:/Users/Experimental user/Desktop/pilot_patxi_marta/perception/run_3.csv","legacy","dog_3.jpg","['scissors_2', 'scissors_7', 'scissors_11', 'scissors_12', 'scissors_3', 'scissors_10', 'scissors_1', 'scissors_9', 'scissors_6', 'scissors_8', 'scissors_5', 'scissors_4']","Lentiform Loewenfeld","3.3.9","[23, 50, 33, 24, 54, 35, 2, 52, 29, 25, 43, 41, 19, 47, 36, 1, 14, 48, 31, 7, 22, 8, 45, 38, 27, 5, 39, 57, 18, 0, 30, 26, 51, 34, 32, 49, 21, 53, 9, 20, 3, 55, 16, 4, 37, 56, 17, 12, 28, 42, 11, 58, 46, 6, 44, 40, 13, 15, 10, 59]","0","s","11662","11662","s","2","NA","13002","legacy","1024","2","48000","-16","images_presentation","203844","0","even","204455","215829","204455","24504","1336","215831","NA","226849","215830","225348","204455","13003","23004","NA","13002","216846","226849","204455","1336","216582","1339","1338","216847","images_presentation","0","11662","1","213847","191453","images_presentation","yes","1024"
"undefined","undefined","11662","11662","black","legacy","legacy","legacy","0","gaussian","uniform","undefined","undefined","9","119","9","0","0","119","0","9","119","9","9","0","0","0","0","9","9","9","0","119","0","0","9","Mon May 30 13:23:13 2022","The main experiment item","yes","",".opensesamerun-tmp.osexp","C:\Users\Experimental user\Desktop\pilot_patxi_marta\perception","no","mono","no","18","no","white","no","yes","[21, 24, 39, 19, 2, 20, 46, 55, 54, 34, 8, 12, 3, 45, 37, 35, 25, 22, 16, 57, 27, 32, 6, 41, 18, 33, 59, 28, 50, 43, 1, 48, 23, 44, 51, 40, 56, 5, 17, 31, 4, 30, 14, 53, 29, 11, 26, 36]","768","legacy","11","11","9","['dog_8', 'dog_5', 'dog_3', 'dog_10', 'dog_2', 'dog_6', 'dog_7', 'dog_4', 'dog_11', 'dog_9', 'dog_12', 'dog_1']","C:/Users/Experimental user/Desktop/pilot_patxi_marta/perception/run_3.csv","legacy","gaussian_42.jpg","['scissors_10', 'scissors_12', 'scissors_2', 'scissors_9', 'scissors_5', 'scissors_6', 'scissors_1', 'scissors_8', 'scissors_7', 'scissors_3', 'scissors_4', 'scissors_11']","Lentiform Loewenfeld","3.3.9","[31, 40, 20, 21, 56, 52, 5, 44, 58, 41, 4, 6, 1, 10, 17, 25, 29, 37, 46, 23, 54, 32, 49, 55, 15, 38, 39, 28, 14, 3, 34, 12, 48, 33, 2, 24, 35, 13, 19, 30, 0, 26, 8, 51, 7, 11, 42, 27, 36, 50, 16, 47, 9, 45, 53, 18, 57, 59, 22, 43]","0","s","11662","11662","s","2","NA","13002","legacy","1024","2","48000","-16","images_presentation","226324","0","even","226887","238310","226887","24504","1336","238311","NA","249328","238310","247828","226887","13003","23004","NA","13002","239326","249328","226887","1336","239062","1339","1338","239327","images_presentation","0","11662","1","236326","213885","images_presentation","yes","1024"
"undefined","undefined","11662","11662","black","legacy","legacy","legacy","0","living","uniform","undefined","undefined","10","131","10","0","0","131","0","10","131","10","10","0","0","0","0","10","10","10","0","131","0","0","10","Mon May 30 13:23:13 2022","The main experiment item","yes","",".opensesamerun-tmp.osexp","C:\Users\Experimental user\Desktop\pilot_patxi_marta\perception","no","mono","no","18","no","white","no","yes","[52, 16, 1, 59, 21, 46, 18, 35, 4, 45, 58, 6, 26, 29, 5, 28, 53, 22, 25, 43, 42, 0, 14, 20, 34, 32, 51, 57, 30, 33, 54, 55, 36, 39, 2, 3, 23, 41, 40, 17, 24, 7, 38, 13, 8, 31, 49, 27, 15, 19, 56, 10, 50, 9, 44, 48, 11, 47, 37, 12]","768","legacy","11","11","10","[]","C:/Users/Experimental user/Desktop/pilot_patxi_marta/perception/run_3.csv","legacy","dog_9.jpg","['scissors_5', 'scissors_10', 'scissors_12', 'scissors_11', 'scissors_8', 'scissors_2', 'scissors_9', 'scissors_6', 'scissors_7', 'scissors_3', 'scissors_4', 'scissors_1']","Lentiform Loewenfeld","3.3.9","[35, 57, 58, 29, 41, 28, 50, 39, 30, 4, 17, 16, 59, 55, 49, 14, 10, 21, 51, 54, 8, 25, 5, 26, 18, 43, 12, 34, 45, 1, 20, 3, 32, 56, 31, 9, 23, 53, 47, 2, 27, 7, 19, 46, 0, 22, 15, 37, 52, 40, 44, 11, 13, 24, 6, 48, 33, 36, 38, 42]","0","s","11662","11662","s","2","NA","13002","legacy","1024","2","48000","-16","images_presentation","248797","0","even","249407","260783","249406","24504","1336","260784","NA","271802","260783","270302","249407","13003","23004","NA","13002","261799","271802","249407","1336","261535","1339","1338","261800","images_presentation","0","11662","1","258800","236405","images_presentation","yes","1024"
"undefined","undefined","11662","11662","black","legacy","legacy","legacy","0","non_living","uniform","undefined","undefined","11","143","11","0","0","143","0","11","143","11","11","0","0","0","0","11","11","11","0","143","0","0","11","Mon May 30 13:23:13 2022","The main experiment item","yes","",".opensesamerun-tmp.osexp","C:\Users\Experimental user\Desktop\pilot_patxi_marta\perception","no","mono","no","18","no","white","no","yes","[27, 7, 42, 44, 53, 34, 51, 25, 2, 20, 52, 23, 55, 22, 16, 9, 24, 56, 59, 26, 46, 43, 39, 31, 0, 1, 49, 13, 14, 17, 12, 40, 58, 47, 21, 35, 28, 45, 4, 33, 6, 36, 41, 8, 5, 11, 29, 3, 32, 18, 38, 30, 15, 50, 54, 37, 57, 10, 19, 48]","768","legacy","11","11","11","['dog_9', 'dog_1', 'dog_3', 'dog_10', 'dog_2', 'dog_8', 'dog_11', 'dog_7', 'dog_4', 'dog_5', 'dog_12', 'dog_6']","C:/Users/Experimental user/Desktop/pilot_patxi_marta/perception/run_3.csv","legacy","scissors_10.jpg","[]","Lentiform Loewenfeld","3.3.9","[44, 36, 23, 22, 12, 25, 57, 29, 21, 19, 38, 37, 9, 6, 50, 1, 58, 15, 7, 30, 18, 14, 41, 3, 46, 32, 40, 42, 53, 51, 55, 10, 13, 56, 48, 59, 27, 34, 20, 11, 35, 43, 28, 33, 4, 5, 16, 8, 39, 45, 17, 47, 2, 24, 54, 0, 31, 52, 49, 26]","0","s","11662","11662","s","2","NA","13002","legacy","1024","2","48000","-16","images_presentation","271271","0","even","271876","283256","271876","24504","1336","283258","NA","294275","283256","292775","271876","13003","23004","NA","13002","284273","294275","271876","1336","284009","1339","1338","284274","images_presentation","0","11662","1","281273","258874","images_presentation","yes","1024"
"undefined","undefined","11662","11662","black","legacy","legacy","legacy","0","living","uniform","undefined","undefined","12","155","12","0","0","155","0","12","155","12","12","0","0","0","0","12","12","12","0","155","0","0","12","Mon May 30 13:23:13 2022","The main experiment item","yes","",".opensesamerun-tmp.osexp","C:\Users\Experimental user\Desktop\pilot_patxi_marta\perception","no","mono","no","18","no","white","no","yes","[41, 34, 20, 4, 24, 45, 23, 19, 56, 51, 27, 49, 6, 1, 2, 37, 0, 42, 17, 44, 33, 39, 58, 18, 26, 3, 40, 52, 10, 48, 9, 53, 32, 11, 21, 38, 25, 14, 8, 54, 12, 22, 7, 35, 55, 28, 15, 50, 57, 16, 46, 13, 36, 59, 31, 29, 5, 47, 30, 43]","768","legacy","11","11","12","[]","C:/Users/Experimental user/Desktop/pilot_patxi_marta/perception/run_3.csv","legacy","dog_6.jpg","['scissors_8', 'scissors_5', 'scissors_1', 'scissors_10', 'scissors_3', 'scissors_11', 'scissors_4', 'scissors_6', 'scissors_9', 'scissors_7', 'scissors_12', 'scissors_2']","Lentiform Loewenfeld","3.3.9","[3, 59, 19, 1, 23, 29, 45, 8, 37, 36, 54, 31, 5, 33, 15, 43, 20, 34, 55, 27, 24, 40, 9, 0, 17, 16, 42, 56, 52, 44, 50, 22, 7, 38, 48, 41, 21, 46, 26, 49, 14, 35, 18, 30, 39, 11, 58, 4, 25, 6, 53, 57, 10, 12, 32, 51, 2, 47, 28, 13]","0","s","11662","11662","s","2","NA","13002","legacy","1024","2","48000","-16","images_presentation","293745","0","even","294354","305731","294354","24504","1336","305732","NA","316750","305731","315249","294354","13003","23004","NA","13002","306747","316750","294354","1336","306483","1339","1338","306748","images_presentation","0","11662","1","303748","281352","images_presentation","yes","1024"
"undefined","undefined","11662","11662","black","legacy","legacy","legacy","0","living","uniform","undefined","undefined","13","167","13","0","0","167","0","13","167","13","13","0","0","0","0","13","13","13","0","167","0","0","13","Mon May 30 13:23:13 2022","The main experiment item","yes","",".opensesamerun-tmp.osexp","C:\Users\Experimental user\Desktop\pilot_patxi_marta\perception","no","mono","no","18","no","white","no","yes","[28, 8, 58, 37, 42, 54, 56, 29, 40, 44, 24, 4, 14, 25, 45, 16, 9, 27, 0, 34, 33, 59, 17, 43, 55, 30, 41, 11, 50, 46, 13, 23, 21, 31, 12, 38, 5, 2, 47, 20, 26, 18, 57, 22, 53, 52, 7, 32, 3, 39, 36, 1, 35, 49, 10, 48, 6, 19, 51, 15]","768","legacy","11","11","13","[]","C:/Users/Experimental user/Desktop/pilot_patxi_marta/perception/run_3.csv","legacy","dog_3.jpg","['scissors_5', 'scissors_10', 'scissors_7', 'scissors_2', 'scissors_4', 'scissors_8', 'scissors_9', 'scissors_12', 'scissors_3', 'scissors_6', 'scissors_1', 'scissors_11']","Lentiform Loewenfeld","3.3.9","[18, 33, 49, 11, 30, 17, 34, 24, 32, 42, 55, 21, 13, 36, 1, 41, 51, 23, 52, 4, 47, 20, 22, 6, 48, 5, 40, 3, 8, 25, 28, 12, 46, 26, 57, 2, 54, 16, 27, 10, 43, 29, 35, 45, 38, 53, 19, 59, 50, 56, 39, 31, 58, 9, 14, 37, 0, 7, 44, 15]","0","s","11662","11662","s","2","NA","13002","legacy","1024","2","48000","-16","images_presentation","316196","0","even","316789","328182","316789","24504","1336","328183","NA","339200","328182","337700","316789","13003","23004","NA","13002","329198","339200","316789","1336","328934","1339","1338","329199","images_presentation","0","11662","1","326198","303787","images_presentation","yes","1024"
"undefined","undefined","11662","11662","black","legacy","legacy","legacy","0","non_living","uniform","undefined","undefined","14","179","14","0","0","179","0","14","179","14","14","0","0","0","0","14","14","14","0","179","0","0","14","Mon May 30 13:23:13 2022","The main experiment item","yes","",".opensesamerun-tmp.osexp","C:\Users\Experimental user\Desktop\pilot_patxi_marta\perception","no","mono","no","18","no","white","no","yes","[1, 43, 30, 0, 47, 57, 6, 31, 19, 39, 51, 7, 14, 22, 38, 4, 3, 29, 12, 11, 10, 28, 5, 15, 17, 24, 53, 33, 46, 54, 41, 37, 56, 25, 44, 48, 16, 58, 27, 9, 59, 23, 55, 20, 42, 26, 35, 21, 45, 13, 52, 32, 36, 8, 18, 40, 50, 49, 2, 34]","768","legacy","11","11","14","['dog_7', 'dog_4', 'dog_8', 'dog_12', 'dog_2', 'dog_1', 'dog_3', 'dog_5', 'dog_10', 'dog_6', 'dog_9', 'dog_11']","C:/Users/Experimental user/Desktop/pilot_patxi_marta/perception/run_3.csv","legacy","scissors_6.jpg","[]","Lentiform Loewenfeld","3.3.9","[12, 15, 51, 24, 32, 27, 5, 10, 19, 9, 0, 21, 45, 55, 52, 44, 35, 33, 58, 54, 41, 38, 4, 11, 2, 20, 36, 6, 25, 14, 47, 53, 1, 18, 40, 48, 57, 30, 17, 50, 31, 34, 37, 29, 43, 8, 3, 46, 7, 22, 26, 59, 56, 23, 13, 39, 28, 16, 49, 42]","0","s","11662","11662","s","2","NA","13002","legacy","1024","2","48000","-16","images_presentation","338666","0","even","339279","350652","339278","24504","1336","350653","NA","361670","350652","360170","339279","13003","23004","NA","13002","351668","361670","339279","1336","351404","1339","1338","351669","images_presentation","0","11662","1","348668","326277","images_presentation","yes","1024"
"undefined","undefined","11662","11662","black","legacy","legacy","legacy","0","living","uniform","undefined","undefined","15","191","15","0","0","191","0","15","191","15","15","0","0","0","0","15","15","15","0","191","0","0","15","Mon May 30 13:23:13 2022","The main experiment item","yes","",".opensesamerun-tmp.osexp","C:\Users\Experimental user\Desktop\pilot_patxi_marta\perception","no","mono","no","18","no","white","no","yes","[7, 20, 10, 33, 31, 9, 40, 45, 13, 8, 43, 41, 59, 14, 21, 36, 32, 37, 27, 49, 15, 28, 51, 58, 24, 22, 44, 23, 35, 42, 0, 6, 48, 39, 19, 56, 46, 17, 30, 2, 52, 3, 55, 1, 25, 34, 11, 4, 29, 50, 5, 12, 54, 47, 26, 38, 57, 16, 18, 53]","768","legacy","11","11","15","[]","C:/Users/Experimental user/Desktop/pilot_patxi_marta/perception/run_3.csv","legacy","dog_8.jpg","['scissors_3', 'scissors_2', 'scissors_10', 'scissors_8', 'scissors_1', 'scissors_5', 'scissors_7', 'scissors_9', 'scissors_6', 'scissors_4', 'scissors_12', 'scissors_11']","Lentiform Loewenfeld","3.3.9","[23, 40, 53, 27, 49, 16, 35, 29, 7, 3, 36, 33, 32, 56, 46, 18, 50, 8, 42, 54, 39, 14, 57, 59, 2, 10, 43, 51, 24, 26, 12, 41, 19, 22, 9, 21, 38, 20, 55, 17, 0, 45, 13, 44, 1, 15, 37, 5, 34, 28, 25, 6, 47, 11, 31, 4, 52, 30, 48, 58]","0","s","11662","11662","s","2","NA","13002","legacy","1024","2","48000","-16","images_presentation","361098","0","even","361713","373084","361713","24504","1336","373085","NA","384102","373084","382602","361713","13003","23004","NA","13002","374100","384102","361713","1336","373836","1339","1338","374101","images_presentation","0","11662","1","371100","348711","images_presentation","yes","1024"
"undefined","undefined","11662","11662","black","legacy","legacy","legacy","0","non_living","uniform","undefined","undefined","16","203","16","0","0","203","0","16","203","16","16","0","0","0","0","16","16","16","0","203","0","0","16","Mon May 30 13:23:13 2022","The main experiment item","yes","",".opensesamerun-tmp.osexp","C:\Users\Experimental user\Desktop\pilot_patxi_marta\perception","no","mono","no","18","no","white","no","yes","[45, 8, 3, 24, 46, 17, 55, 2, 42, 51, 6, 20, 39, 33, 52, 28, 53, 19, 47, 57, 0, 31, 10, 13, 54, 14, 37, 49, 22, 11, 58, 43, 34, 48, 26, 35, 40, 15, 23, 27, 36, 56, 18, 12, 16, 29, 9, 44, 1, 38, 32, 7, 21, 25, 4, 59, 50, 30, 5, 41]","768","legacy","11","11","16","['dog_4', 'dog_1', 'dog_3', 'dog_2', 'dog_5', 'dog_11', 'dog_12', 'dog_10', 'dog_6', 'dog_7', 'dog_8', 'dog_9']","C:/Users/Experimental user/Desktop/pilot_patxi_marta/perception/run_3.csv","legacy","scissors_4.jpg","[]","Lentiform Loewenfeld","3.3.9","[41, 38, 1, 7, 17, 27, 0, 3, 26, 50, 9, 13, 30, 52, 20, 44, 15, 10, 24, 33, 56, 5, 11, 6, 43, 48, 32, 4, 8, 49, 54, 31, 55, 57, 28, 37, 39, 21, 35, 14, 18, 2, 58, 53, 12, 25, 29, 23, 51, 47, 40, 45, 34, 36, 19, 42, 22, 46, 16, 59]","0","s","11662","11662","s","2","NA","13002","legacy","1024","2","48000","-16","images_presentation","383572","0","even","384182","395558","384181","24504","1336","395559","NA","406576","395558","405076","384182","13003","23004","NA","13002","396574","406576","384182","1336","396310","1339","1338","396575","images_presentation","0","11662","1","393574","371180","images_presentation","yes","1024"
"undefined","undefined","11662","11662","black","legacy","legacy","legacy","0","non_living","uniform","undefined","undefined","17","215","17","0","0","215","0","17","215","17","17","0","0","0","0","17","17","17","0","215","0","0","17","Mon May 30 13:23:13 2022","The main experiment item","yes","",".opensesamerun-tmp.osexp","C:\Users\Experimental user\Desktop\pilot_patxi_marta\perception","no","mono","no","18","no","white","no","yes","[23, 52, 21, 4, 25, 33, 48, 58, 56, 11, 7, 15, 45, 30, 38, 54, 24, 28, 43, 42, 55, 13, 6, 44, 8, 26, 35, 36, 49, 27, 51, 16, 29, 57, 14, 46, 40, 1, 2, 10, 32, 9, 41, 59, 31, 20, 34, 19, 37, 39, 18, 22, 47, 5, 12, 53, 50, 17, 3, 0]","768","legacy","11","11","17","['dog_11', 'dog_2', 'dog_5', 'dog_4', 'dog_8', 'dog_6', 'dog_9', 'dog_7', 'dog_12', 'dog_10', 'dog_1', 'dog_3']","C:/Users/Experimental user/Desktop/pilot_patxi_marta/perception/run_3.csv","legacy","scissors_12.jpg","[]","Lentiform Loewenfeld","3.3.9","[2, 45, 44, 40, 39, 29, 9, 28, 38, 8, 11, 22, 54, 14, 24, 18, 46, 20, 21, 43, 12, 51, 7, 37, 5, 59, 32, 15, 53, 26, 19, 10, 57, 35, 17, 13, 52, 41, 50, 27, 3, 30, 42, 16, 34, 0, 36, 55, 31, 58, 49, 6, 1, 47, 23, 33, 48, 56, 25, 4]","0","s","11662","11662","s","2","NA","13002","legacy","1024","2","48000","-16","images_presentation","406048","0","even","406656","418034","406655","24504","1336","418035","NA","429052","418034","427552","406656","13003","23004","NA","13002","419050","429052","406656","1336","418786","1339","1338","419051","images_presentation","0","11662","1","416050","393654","images_presentation","yes","1024"
"undefined","undefined","11662","11662","black","legacy","legacy","legacy","0","non_living","uniform","undefined","undefined","17","215","17","0","0","215","0","17","215","17","17","0","0","0","0","17","17","17","0","215","0","0","17","Mon May 30 13:23:13 2022","The main experiment item","yes","",".opensesamerun-tmp.osexp","C:\Users\Experimental user\Desktop\pilot_patxi_marta\perception","no","mono","no","18","no","white","no","yes","[23, 52, 21, 4, 25, 33, 48, 58, 56, 11, 7, 15, 45, 30, 38, 54, 24, 28, 43, 42, 55, 13, 6, 44, 8, 26, 35, 36, 49, 27, 51, 16, 29, 57, 14, 46, 40, 1, 2, 10, 32, 9, 41, 59, 31, 20, 34, 19, 37, 39, 18, 22, 47, 5, 12, 53, 50, 17, 3, 0]","768","legacy","11","11","17","['dog_11', 'dog_2', 'dog_5', 'dog_4', 'dog_8', 'dog_6', 'dog_9', 'dog_7', 'dog_12', 'dog_10', 'dog_1', 'dog_3']","C:/Users/Experimental user/Desktop/pilot_patxi_marta/perception/run_3.csv","legacy","scissors_12.jpg","[]","Lentiform Loewenfeld","3.3.9","[2, 45, 44, 40, 39, 29, 9, 28, 38, 8, 11, 22, 54, 14, 24, 18, 46, 20, 21, 43, 12, 51, 7, 37, 5, 59, 32, 15, 53, 26, 19, 10, 57, 35, 17, 13, 52, 41, 50, 27, 3, 30, 42, 16, 34, 0, 36, 55, 31, 58, 49, 6, 1, 47, 23, 33, 48, 56, 25, 4]","0","s","11662","11662","s","2","416116","13002","legacy","1024","2","48000","-16","images_presentation","406048","0","even","406656","418034","406655","24504","1336","418035","429118","429052","418034","427552","406656","13003","23004","429118","13002","419050","429052","406656","1336","418786","1339","1338","419051","images_presentation","0","11662","1","416050","393654","images_presentation","yes","1024"
